Folder: escarabajos/DSC_data/V. Soto

Note: README.txt
FOLDER STRUCTURE MUST BE AS FOLLOWS:

ROOT: escarabajos

UNDER ROOT THERE MUST BE:

libraries: Necessary code. 
L1050_data: Spectrometer data
reports: Report location directory
collections: Directory with collection data

File: DSC_A1_1_0-100C_6Cmin_2.txt
Filename	DSC_A1_1_0-100C_6Cmin_2
Instrument name	DSC2A-00281 (192.168.1.101)
Operator	JDAA
rundate	5/7/2024
Sample name	DSC_A1_1_0-100C_6C/min_2
proceduresegments	Equilibrate 0,00000 °C; Isothermal 0,5 min; Data On ; Ramp 6,00 °C/min to 100,000 °C; Mark End of Cycle ; Ramp 6,00 °C/min to 0,00000 °C; Mark End of Cycle ; Ramp 6,00 °C/min to 100,000 °C; Mark End of Cycle ; Mark End of Cycle ; Data Off
[step]
Ramp 6,00 °C/min to 100,000 °C
Time	Temperature	Heat Flow (Normalized)
s	°C	W/g
30,0000	-0,132773	-0,168451
33,4000	-0,120280	-0,143144
36,8000	-0,0325687	0,0629577
40,2000	0,166197	0,175993
43,6000	0,436365	0,141879
47,0000	0,737753	0,0762308
50,4000	1,05538	0,0317410
53,8000	1,38022	8,27645e-3
57,2000	1,70897	-1,67974e-3
60,6000	2,04043	-5,28339e-3
64,0000	2,37307	-8,05231e-3
67,4000	2,70873	-9,86872e-3
70,8000	3,04393	-0,0112056
74,2000	3,38094	-0,0127086
77,6000	3,71939	-0,0140506
81,0000	4,05730	-0,0150796
84,4000	4,39373	-0,0158613
87,8000	4,73358	-0,0164236
91,2000	5,07154	-0,0167662
94,6000	5,41058	-0,0170224
98,0000	5,75090	-0,0172416
101,400	6,09111	-0,0173550
104,800	6,43171	-0,0178519
108,200	6,77055	-0,0180151
111,600	7,11158	-0,0180430
115,000	7,45185	-0,0183087
118,400	7,79100	-0,0183172
121,800	8,13139	-0,0186090
125,200	8,47307	-0,0187980
128,600	8,81277	-0,0192198
132,000	9,15337	-0,0192134
135,400	9,49225	-0,0191907
138,800	9,83314	-0,0190178
142,200	10,1736	-0,0191148
145,600	10,5149	-0,0193500
149,000	10,8550	-0,0194694
152,400	11,1952	-0,0195047
155,800	11,5353	-0,0194124
159,200	11,8762	-0,0192719
162,600	12,2165	-0,0192889
166,000	12,5570	-0,0193199
169,400	12,8970	-0,0195925
172,800	13,2385	-0,0197742
176,200	13,5778	-0,0197731
179,600	13,9190	-0,0200795
183,000	14,2594	-0,0199132
186,400	14,5996	-0,0200471
189,800	14,9411	-0,0202292
193,200	15,2811	-0,0204872
196,600	15,6223	-0,0207577
200,000	15,9623	-0,0208441
203,400	16,3026	-0,0209885
206,800	16,6439	-0,0213050
210,200	16,9841	-0,0216707
213,600	17,3230	-0,0218668
217,000	17,6633	-0,0220253
220,400	18,0049	-0,0221271
223,800	18,3437	-0,0222400
227,200	18,6841	-0,0223119
230,600	19,0250	-0,0224014
234,000	19,3648	-0,0223560
237,400	19,7052	-0,0225556
240,800	20,0463	-0,0228709
244,200	20,3855	-0,0236817
247,600	20,7258	-0,0239754
251,000	21,0656	-0,0242158
254,400	21,4068	-0,0241394
257,800	21,7469	-0,0244801
261,200	22,0861	-0,0248423
264,600	22,4272	-0,0246153
268,000	22,7681	-0,0248175
271,400	23,1084	-0,0250610
274,800	23,4476	-0,0255029
278,200	23,7881	-0,0256197
281,600	24,1278	-0,0257881
285,000	24,4689	-0,0259114
288,400	24,8094	-0,0262364
291,800	25,1484	-0,0264256
295,200	25,4898	-0,0269076
298,600	25,8304	-0,0271169
302,000	26,1699	-0,0274584
305,400	26,5108	-0,0278487
308,800	26,8498	-0,0280735
312,200	27,1908	-0,0280095
315,600	27,5319	-0,0284215
319,000	27,8713	-0,0287673
322,400	28,2122	-0,0291675
325,800	28,5515	-0,0294313
329,200	28,8931	-0,0295333
332,600	29,2326	-0,0299378
336,000	29,5728	-0,0302006
339,400	29,9129	-0,0304376
342,800	30,2523	-0,0308538
346,200	30,5931	-0,0313864
349,600	30,9337	-0,0317429
353,000	31,2745	-0,0320928
356,400	31,6142	-0,0322664
359,800	31,9540	-0,0322913
363,200	32,2943	-0,0328096
366,600	32,6348	-0,0333651
370,000	32,9749	-0,0339062
373,400	33,3151	-0,0344024
376,800	33,6546	-0,0347043
380,200	33,9953	-0,0347955
383,600	34,3365	-0,0352885
387,000	34,6759	-0,0358370
390,400	35,0155	-0,0364490
393,800	35,3565	-0,0367138
397,200	35,6971	-0,0372125
400,600	36,0368	-0,0375383
404,000	36,3756	-0,0379476
407,400	36,7164	-0,0384666
410,800	37,0586	-0,0389037
414,200	37,3971	-0,0393818
417,600	37,7374	-0,0398788
421,000	38,0776	-0,0403762
424,400	38,4180	-0,0407695
427,800	38,7590	-0,0416021
431,200	39,0980	-0,0418975
434,600	39,4391	-0,0422604
438,000	39,7775	-0,0427543
441,400	40,1191	-0,0431742
444,800	40,4586	-0,0435329
448,200	40,7983	-0,0441566
451,600	41,1387	-0,0446558
455,000	41,4786	-0,0453057
458,400	41,8197	-0,0457662
461,800	42,1597	-0,0463976
465,200	42,4992	-0,0468729
468,600	42,8384	-0,0475750
472,000	43,1805	-0,0480167
475,400	43,5208	-0,0490711
478,800	43,8597	-0,0494800
482,200	44,1998	-0,0498319
485,600	44,5414	-0,0502589
489,000	44,8807	-0,0510873
492,400	45,2213	-0,0515703
495,800	45,5613	-0,0522763
499,200	45,9009	-0,0527748
502,600	46,2412	-0,0535706
506,000	46,5809	-0,0543661
509,400	46,9218	-0,0547370
512,800	47,2625	-0,0554393
516,200	47,6008	-0,0560507
519,600	47,9413	-0,0565749
523,000	48,2822	-0,0571349
526,400	48,6213	-0,0578711
529,800	48,9629	-0,0578894
533,200	49,3033	-0,0603625
536,600	49,6424	-0,0608412
540,000	49,9823	-0,0609457
543,400	50,3233	-0,0611502
546,800	50,6637	-0,0617617
550,200	51,0036	-0,0624636
553,600	51,3438	-0,0628832
557,000	51,6838	-0,0634823
560,400	52,0247	-0,0638621
563,800	52,3641	-0,0645004
567,200	52,7040	-0,0651671
570,600	53,0448	-0,0656509
574,000	53,3847	-0,0664235
577,400	53,7249	-0,0669880
580,800	54,0654	-0,0679065
584,200	54,4050	-0,0685540
587,600	54,7444	-0,0687755
591,000	55,0847	-0,0695614
594,400	55,4263	-0,0701897
597,800	55,7657	-0,0705182
601,200	56,1065	-0,0710205
604,600	56,4456	-0,0715730
608,000	56,7860	-0,0720867
611,400	57,1266	-0,0725474
614,800	57,4672	-0,0728868
618,200	57,8075	-0,0733804
621,600	58,1477	-0,0738088
625,000	58,4866	-0,0742984
628,400	58,8266	-0,0743537
631,800	59,1680	-0,0749227
635,200	59,5069	-0,0753347
638,600	59,8486	-0,0754809
642,000	60,1878	-0,0759491
645,400	60,5276	-0,0762151
648,800	60,8681	-0,0765763
652,200	61,2087	-0,0767161
655,600	61,5484	-0,0768800
659,000	61,8893	-0,0772777
662,400	62,2297	-0,0776292
665,800	62,5698	-0,0776813
669,200	62,9090	-0,0779651
672,600	63,2490	-0,0779378
676,000	63,5897	-0,0783235
679,400	63,9296	-0,0786261
682,800	64,2700	-0,0788253
686,200	64,6108	-0,0789123
689,600	64,9502	-0,0790250
693,000	65,2901	-0,0791656
696,400	65,6312	-0,0790280
699,800	65,9714	-0,0790496
703,200	66,3111	-0,0789585
706,600	66,6519	-0,0789886
710,000	66,9921	-0,0789901
713,400	67,3336	-0,0790275
716,800	67,6728	-0,0788665
720,200	68,0134	-0,0788508
723,600	68,3535	-0,0791033
727,000	68,6927	-0,0787183
730,400	69,0342	-0,0784737
733,800	69,3742	-0,0786050
737,200	69,7146	-0,0784017
740,600	70,0552	-0,0781062
744,000	70,3955	-0,0781119
747,400	70,7350	-0,0781972
750,800	71,0755	-0,0780769
754,200	71,4161	-0,0778235
757,600	71,7557	-0,0774414
761,000	72,0962	-0,0771174
764,400	72,4357	-0,0768597
767,800	72,7775	-0,0765953
771,200	73,1170	-0,0763544
774,600	73,4574	-0,0761224
778,000	73,7973	-0,0758192
781,400	74,1382	-0,0753892
784,800	74,4774	-0,0750705
788,200	74,8180	-0,0744987
791,600	75,1587	-0,0741694
795,000	75,4982	-0,0736638
798,400	75,8401	-0,0733597
801,800	76,1788	-0,0730018
805,200	76,5201	-0,0726443
808,600	76,8594	-0,0720263
812,000	77,2008	-0,0716818
815,400	77,5402	-0,0709464
818,800	77,8816	-0,0706305
822,200	78,2216	-0,0700801
825,600	78,5619	-0,0694902
829,000	78,9021	-0,0690176
832,400	79,2422	-0,0685069
835,800	79,5826	-0,0677751
839,200	79,9234	-0,0673025
842,600	80,2628	-0,0667620
846,000	80,6038	-0,0666257
849,400	80,9449	-0,0660481
852,800	81,2832	-0,0655198
856,200	81,6240	-0,0647767
859,600	81,9639	-0,0644209
863,000	82,3048	-0,0636835
866,400	82,6456	-0,0631950
869,800	82,9869	-0,0626523
873,200	83,3266	-0,0622719
876,600	83,6665	-0,0619331
880,000	84,0072	-0,0611802
883,400	84,3473	-0,0605382
886,800	84,6885	-0,0602284
[...]
2577,80	53,7157	-6,10470e-3
2581,20	54,0580	-5,87616e-3
2584,60	54,3969	-6,02957e-3
2588,00	54,7369	-5,83319e-3
2591,40	55,0788	-5,58070e-3
2594,80	55,4187	-5,64641e-3
2598,20	55,7579	-5,62875e-3
2601,60	56,0988	-5,65803e-3
2605,00	56,4385	-5,07360e-3
2608,40	56,7790	-5,18937e-3
2611,80	57,1210	-4,84063e-3
2615,20	57,4602	-5,05817e-3
2618,60	57,7999	-4,86667e-3
2622,00	58,1401	-4,69559e-3
2625,40	58,4804	-4,56884e-3
2628,80	58,8208	-4,62097e-3
2632,20	59,1612	-4,28891e-3
2635,60	59,5013	-4,25520e-3
2639,00	59,8418	-3,93320e-3
2642,40	60,1825	-3,78600e-3
2645,80	60,5224	-3,67446e-3
2649,20	60,8630	-3,74273e-3
2652,60	61,2025	-3,76156e-3
2656,00	61,5431	-3,36486e-3
2659,40	61,8833	-3,02356e-3
2662,80	62,2238	-3,08867e-3
2666,20	62,5651	-3,38159e-3
2669,60	62,9045	-3,12787e-3
2673,00	63,2438	-2,73747e-3
2676,40	63,5842	-2,80821e-3
2679,80	63,9241	-2,76924e-3
2683,20	64,2646	-2,54863e-3
2686,60	64,6054	-2,44169e-3
2690,00	64,9458	-2,36585e-3
2693,40	65,2870	-2,38553e-3
2696,80	65,6273	-2,11358e-3
2700,20	65,9674	-2,03256e-3
2703,60	66,3074	-1,80673e-3
2707,00	66,6468	-1,53005e-3
2710,40	66,9881	-1,33464e-3
2713,80	67,3277	-1,21166e-3
2717,20	67,6689	-1,14826e-3
2720,60	68,0090	-1,08724e-3
2724,00	68,3486	-9,23764e-4
2727,40	68,6889	-6,70152e-4
2730,80	69,0290	-7,50695e-4
2734,20	69,3699	-3,08944e-4
2737,60	69,7092	-3,79147e-4
2741,00	70,0496	-3,67770e-4
2744,40	70,3919	-2,91332e-4
2747,80	70,7303	-4,03449e-4
2751,20	71,0703	-9,40994e-5
2754,60	71,4109	9,49810e-5
2758,00	71,7504	3,83731e-4
2761,40	72,0913	6,02140e-4
2764,80	72,4314	6,20825e-4
2768,20	72,7724	7,67070e-4
2771,60	73,1124	8,43684e-4
2775,00	73,4520	1,16993e-3
2778,40	73,7922	1,05902e-3
2781,80	74,1317	1,34464e-3
2785,20	74,4733	1,92563e-3
2788,60	74,8137	2,02329e-3
2792,00	75,1537	2,04338e-3
2795,40	75,4936	2,07605e-3
2798,80	75,8341	2,35473e-3
2802,20	76,1741	2,34921e-3
2805,60	76,5144	2,63641e-3
2809,00	76,8543	2,81617e-3
2812,40	77,1946	2,88622e-3
2815,80	77,5352	3,20393e-3
2819,20	77,8751	3,47130e-3
2822,60	78,2165	3,52566e-3
2826,00	78,5548	3,70716e-3
2829,40	78,8952	3,91176e-3
2832,80	79,2359	4,14196e-3
2836,20	79,5763	4,31770e-3
2839,60	79,9171	4,49963e-3
2843,00	80,2573	4,60123e-3
2846,40	80,5969	4,60420e-3
2849,80	80,9381	4,85001e-3
2853,20	81,2766	4,86754e-3
2856,60	81,6170	5,19562e-3
2860,00	81,9569	5,13093e-3
2863,40	82,2992	5,40933e-3
2866,80	82,6380	5,47666e-3
2870,20	82,9786	5,41866e-3
2873,60	83,3182	5,69437e-3
2877,00	83,6594	6,03038e-3
2880,40	83,9996	6,13894e-3
2883,80	84,3396	6,07626e-3
2887,20	84,6808	6,19409e-3
2890,60	85,0195	6,15506e-3
2894,00	85,3599	6,59094e-3
2897,40	85,6995	6,53134e-3
2900,80	86,0402	6,67793e-3
2904,20	86,3811	6,78303e-3
2907,60	86,7205	6,96022e-3
2911,00	87,0617	6,85462e-3
2914,40	87,4021	6,95346e-3
2917,80	87,7417	6,95749e-3
2921,20	88,0825	7,16894e-3
2924,60	88,4226	7,39068e-3
2928,00	88,7614	7,63583e-3
2931,40	89,1029	7,71064e-3
2934,80	89,4422	7,79226e-3
2938,20	89,7821	7,94096e-3
2941,60	90,1238	8,24082e-3
2945,00	90,4640	8,53463e-3
2948,40	90,8032	8,31081e-3
2951,80	91,1447	8,35729e-3
2955,20	91,4837	8,42376e-3
2958,60	91,8249	8,68420e-3
2962,00	92,1649	8,88245e-3
2965,40	92,5049	9,09357e-3
2968,80	92,8455	9,27054e-3
2972,20	93,1852	9,13875e-3
2975,60	93,5266	9,12271e-3
2979,00	93,8661	9,45889e-3
2982,40	94,2060	9,79287e-3
2985,80	94,5465	9,63159e-3
2989,20	94,8865	9,57587e-3
2992,60	95,2263	9,70106e-3
2996,00	95,5677	9,77724e-3
2999,40	95,9065	9,72397e-3
3002,80	96,2478	9,94881e-3
3006,20	96,5873	9,96413e-3
3009,60	96,9275	9,96236e-3
3013,00	97,2674	0,0101112
3016,40	97,6087	0,0103369
3019,80	97,9481	0,0103125
3023,20	98,2893	0,0105209
3026,60	98,6293	0,0105506
3030,00
3030,40

File: DSC_A1_1_0-100C_6Cmin_TXT.txt
Time	Temperature	Heat Flow (Normalized)
s	Â°C	W/g
60,0000	-0,135830	-0,165489
63,4000	-0,123964	-0,133091
66,8000	-0,0332993	0,0463955
70,2000	0,167616	0,105610
73,6000	0,438102	0,0659388
77,0000	0,745049	7,83396e-3
80,4000	1,06492	-0,0164085
83,8000	1,39290	-0,0369448
87,2000	1,72254	-0,0434321
90,6000	2,05424	-0,0457306
94,0000	2,38707	-0,0470685
97,4000	2,72207	-0,0483080
100,800	3,05865	-0,0492212
104,200	3,39595	-0,0503870
107,600	3,73289	-0,0513743
111,000	4,06947	-0,0520154
114,400	4,40850	-0,0524692
117,800	4,74701	-0,0531115
121,200	5,08634	-0,0535503
124,600	5,42450	-0,0541119
128,000	5,76555	-0,0545090
131,400	6,10499	-0,0548957
134,800	6,44330	-0,0553701
138,200	6,78400	-0,0555696
141,600	7,12389	-0,0559123
145,000	7,46391	-0,0561908
148,400	7,80476	-0,0566410
151,800	8,14419	-0,0570114
155,200	8,48443	-0,0570806
158,600	8,82586	-0,0574757
162,000	9,16516	-0,0578105
165,400	9,50691	-0,0582479
168,800	9,84798	-0,0581666
172,200	10,1884	-0,0586766
175,600	10,5285	-0,0587799
179,000	10,8681	-0,0590550
182,400	11,2096	-0,0598127
185,800	11,5503	-0,0602727
189,200	11,8909	-0,0605175
192,600	12,2305	-0,0608744
196,000	12,5701	-0,0611893
199,400	12,9116	-0,0615406
202,800	13,2510	-0,0619885
206,200	13,5914	-0,0621826
209,600	13,9336	-0,0627807
213,000	14,2737	-0,0632423
216,400	14,6148	-0,0637290
219,800	14,9548	-0,0643042
223,200	15,2946	-0,0645952
226,600	15,6353	-0,0649959
230,000	15,9751	-0,0652522
233,400	16,3161	-0,0657541
236,800	16,6559	-0,0660742
240,200	16,9959	-0,0666196
243,600	17,3355	-0,0670299
247,000	17,6760	-0,0677137
250,400	18,0173	-0,0682847
253,800	18,3580	-0,0689691
257,200	18,6980	-0,0695114
260,600	19,0393	-0,0701073
264,000	19,3785	-0,0705478
267,400	19,7189	-0,0709591
270,800	20,0596	-0,0715689
274,200	20,3987	-0,0722899
277,600	20,7385	-0,0728349
281,000	21,0793	-0,0732378
284,400	21,4191	-0,0737013
287,800	21,7597	-0,0742391
291,200	22,0993	-0,0747919
294,600	22,4401	-0,0754127
298,000	22,7819	-0,0760263
301,400	23,1207	-0,0768626
304,800	23,4617	-0,0776967
308,200	23,8009	-0,0781966
311,600	24,1413	-0,0788963
315,000	24,4814	-0,0798304
318,400	24,8215	-0,0805641
321,800	25,1632	-0,0811715
325,200	25,5033	-0,0818246
328,600	25,8415	-0,0826945
332,000	26,1824	-0,0833244
335,400	26,5224	-0,0840761
338,800	26,8634	-0,0849382
342,200	27,2034	-0,0859245
345,600	27,5440	-0,0867343
349,000	27,8839	-0,0875560
352,400	28,2240	-0,0884728
355,800	28,5645	-0,0892054
359,200	28,9044	-0,0902969
362,600	29,2451	-0,0909917
366,000	29,5853	-0,0921935
369,400	29,9252	-0,0930027
372,800	30,2650	-0,0940197
376,200	30,6051	-0,0948608
379,600	30,9464	-0,0956574
383,000	31,2863	-0,0973298
386,400	31,6263	-0,0980427
389,800	31,9657	-0,0991368
393,200	32,3050	-0,0999431
396,600	32,6446	-0,100668
400,000	32,9871	-0,101650
403,400	33,3262	-0,103097
406,800	33,6662	-0,103735
410,200	34,0062	-0,105001
413,600	34,3461	-0,106216
417,000	34,6861	-0,107263
420,400	35,0267	-0,108365
423,800	35,3660	-0,109305
427,200	35,7064	-0,110486
430,600	36,0470	-0,111526
434,000	36,3882	-0,112726
437,400	36,7265	-0,113989
440,800	37,0672	-0,115525
444,200	37,4068	-0,116448
447,600	37,7477	-0,118009
451,000	38,0882	-0,119297
454,400	38,4266	-0,120378
457,800	38,7668	-0,121415
461,200	39,1071	-0,122474
464,600	39,4479	-0,123935
468,000	39,7877	-0,125072
471,400	40,1280	-0,126318
474,800	40,4680	-0,127720
478,200	40,8083	-0,129013
481,600	41,1483	-0,130331
485,000	41,4882	-0,131614
488,400	41,8283	-0,132898
491,800	42,1684	-0,134525
495,200	42,5084	-0,135736
498,600	42,8482	-0,136562
502,000	43,1886	-0,138249
505,400	43,5290	-0,139377
508,800	43,8686	-0,140905
512,200	44,2079	-0,141896
515,600	44,5484	-0,143040
519,000	44,8890	-0,144337
522,400	45,2288	-0,145709
525,800	45,5687	-0,146917
529,200	45,9085	-0,148099
532,600	46,2489	-0,149579
536,000	46,5887	-0,150787
539,400	46,9293	-0,152227
542,800	47,2683	-0,153129
546,200	47,6101	-0,154196
549,600	47,9497	-0,155289
553,000	48,2893	-0,156568
556,400	48,6275	-0,157247
559,800	48,9705	-0,157989
563,200	49,3109	-0,159959
566,600	49,6496	-0,160763
570,000	49,9890	-0,161386
573,400	50,3308	-0,161986
576,800	50,6701	-0,163196
580,200	51,0088	-0,164174
583,600	51,3507	-0,164826
587,000	51,6907	-0,165793
590,400	52,0307	-0,166485
593,800	52,3710	-0,167035
597,200	52,7102	-0,168071
600,600	53,0504	-0,168641
604,000	53,3914	-0,169398
607,400	53,7311	-0,170054
610,800	54,0714	-0,170723
614,200	54,4108	-0,171001
617,600	54,7519	-0,171436
621,000	55,0924	-0,172149
624,400	55,4324	-0,172691
627,800	55,7721	-0,172970
631,200	56,1125	-0,173329
634,600	56,4524	-0,173723
638,000	56,7925	-0,174159
641,400	57,1333	-0,174423
644,800	57,4728	-0,174710
648,200	57,8143	-0,174809
651,600	58,1538	-0,175129
655,000	58,4945	-0,175200
658,400	58,8352	-0,175536
661,800	59,1751	-0,175875
665,200	59,5151	-0,175996
668,600	59,8546	-0,175909
672,000	60,1966	-0,175957
675,400	60,5360	-0,175885
678,800	60,8766	-0,175965
682,200	61,2178	-0,176158
685,600	61,5564	-0,176134
689,000	61,8970	-0,175930
692,400	62,2380	-0,175882
695,800	62,5783	-0,175809
699,200	62,9172	-0,175505
702,600	63,2579	-0,175336
706,000	63,5988	-0,175049
709,400	63,9388	-0,174898
712,800	64,2794	-0,174758
716,200	64,6203	-0,174289
719,600	64,9601	-0,173986
723,000	65,3006	-0,173761
726,400	65,6402	-0,173314
729,800	65,9808	-0,173078
733,200	66,3206	-0,172483
736,600	66,6630	-0,161594
740,000	67,0015	-0,163350
743,400	67,3423	-0,164291
746,800	67,6833	-0,165266
750,200	68,0225	-0,165931
753,600	68,3632	-0,166152
757,000	68,7024	-0,166165
760,400	69,0437	-0,165772
763,800	69,3844	-0,165516
767,200	69,7250	-0,165194
770,600	70,0647	-0,164796
774,000	70,4060	-0,164279
777,400	70,7470	-0,163789
780,800	71,0853	-0,163234
784,200	71,4258	-0,162247
787,600	71,7665	-0,161755
791,000	72,1073	-0,160995
794,400	72,4482	-0,160379
797,800	72,7874	-0,159719
801,200	73,1287	-0,158818
804,600	73,4680	-0,158002
808,000	73,8085	-0,157253
811,400	74,1490	-0,156564
814,800	74,4900	-0,155841
818,200	74,8297	-0,154458
821,600	75,1706	-0,153869
825,000	75,5108	-0,153325
828,400	75,8515	-0,152425
831,800	76,1907	-0,151358
835,200	76,5321	-0,150290
838,600	76,8717	-0,149391
842,000	77,2127	-0,148595
845,400	77,5537	-0,147551
848,800	77,8944	-0,146800
852,200	78,2334	-0,146041
855,600	78,5746	-0,144889
859,000	78,9160	-0,143885
862,400	79,2558	-0,142711
865,800	79,5957	-0,141700
869,200	79,9357	-0,140553
872,600	80,2767	-0,139091
876,000	80,6169	-0,137896
879,400	80,9568	-0,137230
882,800	81,2969	-0,136121
886,200	81,6378	-0,134905
889,600	81,9781	-0,133920
893,000	82,3188	-0,133151
896,400	82,6577	-0,132273
899,800	82,9987	-0,131214
903,200	83,3380	-0,130192
906,600	83,6798	-0,129044
910,000	84,0198	-0,128048
913,400	84,3603	-0,127226
916,800	84,7012	-0,126269
920,200	85,0412	-0,125188
923,600	85,3826	-0,123944
927,000	85,7237	-0,122885
930,400	86,0625	-0,121822
933,800	86,4022	-0,120624
937,200	86,7442	-0,119626
940,600	87,0859	-0,118853
944,000	87,4254	-0,117936
947,400	87,7650	-0,116744
950,800	88,1040	-0,115395
954,200	88,4466	-0,114307
957,600	88,7862	-0,113382
961,000	89,1268	-0,112308
964,400	89,4677	-0,111455
967,800	89,8073	-0,110156
971,200	90,1470	-0,109394
974,600	90,4889	-0,108105
978,000	90,8290	-0,107035
981,400	91,1685	-0,105747
984,800	91,5091	-0,104621
988,200	91,8495	-0,103444
991,600	92,1907	-0,102526
995,000	92,5300	-0,101581
998,400	92,8703	-0,100394
1001,80	93,2106	-0,0995076
1005,20	93,5508	-0,0984603
1008,60	93,8911	-0,0976054
1012,00	94,2319	-0,0966806
1015,40	94,5730	-0,0956174
1018,80	94,9123	-0,0946706
1022,20	95,2527	-0,0937358
1025,60	95,5940	-0,0927443
1029,00	95,9353	-0,0918623
1032,40	96,2754	-0,0909940
1035,80	96,6155	-0,0900551
1039,20	96,9555	-0,0888525
1042,60	97,2958	-0,0878254
1046,00	97,6359	-0,0870118
1049,40	97,9753	-0,0859668
1052,80	98,3166	-0,0850187
1056,20	98,6574	-0,0841131
1056,60	98,6966	-0,0840287