Folder: escarabajos/DSC_data/V. Soto (part 2)

File: DSC_A1_2_0-100C_6Cmin_TXT.txt
Time	Temperature	Heat Flow (Normalized)
s	Â°C	W/g
60,0000	-0,132917	-0,163465
63,4000	-0,120805	-0,127435
66,8000	-0,0310400	0,0474930
70,2000	0,170186	0,111484
73,6000	0,440220	0,0727893
77,0000	0,745165	0,0167101
80,4000	1,06580	-0,0146390
83,8000	1,39323	-0,0272259
87,2000	1,72254	-0,0319858
90,6000	2,05553	-0,0340114
94,0000	2,38819	-0,0356924
97,4000	2,72251	-0,0369438
100,800	3,05827	-0,0378288
104,200	3,39391	-0,0387992
107,600	3,73199	-0,0394705
111,000	4,06892	-0,0399580
114,400	4,40666	-0,0403999
117,800	4,74576	-0,0409272
121,200	5,08327	-0,0412271
124,600	5,42235	-0,0415613
128,000	5,76250	-0,0418164
131,400	6,10234	-0,0422503
134,800	6,44082	-0,0425574
138,200	6,78208	-0,0426566
141,600	7,12164	-0,0428294
145,000	7,46223	-0,0432010
148,400	7,80256	-0,0433663
151,800	8,14496	-0,0434954
155,200	8,48370	-0,0437078
158,600	8,82261	-0,0439274
162,000	9,16379	-0,0441933
165,400	9,50364	-0,0441974
168,800	9,84509	-0,0441850
172,200	10,1866	-0,0444374
175,600	10,5263	-0,0449261
179,000	10,8671	-0,0451580
182,400	11,2072	-0,0455560
185,800	11,5472	-0,0455223
189,200	11,8888	-0,0458365
192,600	12,2289	-0,0460244
196,000	12,5692	-0,0461141
199,400	12,9094	-0,0463064
202,800	13,2490	-0,0466331
206,200	13,5910	-0,0468214
209,600	13,9313	-0,0469604
213,000	14,2722	-0,0469855
216,400	14,6114	-0,0472265
219,800	14,9518	-0,0473058
223,200	15,2927	-0,0474287
226,600	15,6332	-0,0477155
230,000	15,9740	-0,0479299
233,400	16,3134	-0,0480125
236,800	16,6546	-0,0480935
240,200	16,9944	-0,0482345
243,600	17,3360	-0,0484302
247,000	17,6758	-0,0487627
250,400	18,0164	-0,0490378
253,800	18,3570	-0,0492659
257,200	18,6973	-0,0495948
260,600	19,0371	-0,0499821
264,000	19,3789	-0,0502614
267,400	19,7175	-0,0507083
270,800	20,0587	-0,0509377
274,200	20,3977	-0,0511253
277,600	20,7380	-0,0512370
281,000	21,0784	-0,0514381
284,400	21,4181	-0,0516113
287,800	21,7596	-0,0517507
291,200	22,0995	-0,0522136
294,600	22,4394	-0,0524383
298,000	22,7797	-0,0527456
301,400	23,1195	-0,0528539
304,800	23,4595	-0,0533494
308,200	23,8011	-0,0535540
311,600	24,1401	-0,0538679
315,000	24,4799	-0,0542368
318,400	24,8214	-0,0544967
321,800	25,1616	-0,0546247
325,200	25,5018	-0,0550356
328,600	25,8413	-0,0553709
332,000	26,1833	-0,0558391
335,400	26,5225	-0,0562411
338,800	26,8630	-0,0566163
342,200	27,2025	-0,0568160
345,600	27,5422	-0,0569981
349,000	27,8834	-0,0573008
352,400	28,2238	-0,0577235
355,800	28,5645	-0,0578562
359,200	28,9043	-0,0584513
362,600	29,2451	-0,0584926
366,000	29,5842	-0,0589295
369,400	29,9246	-0,0592093
372,800	30,2653	-0,0596397
376,200	30,6064	-0,0599586
379,600	30,9464	-0,0602823
383,000	31,2860	-0,0606532
386,400	31,6257	-0,0610884
389,800	31,9662	-0,0613276
393,200	32,3074	-0,0616774
396,600	32,6453	-0,0619522
400,000	32,9871	-0,0622145
403,400	33,3277	-0,0625405
406,800	33,6667	-0,0630480
410,200	34,0077	-0,0635076
413,600	34,3482	-0,0639158
417,000	34,6889	-0,0640727
420,400	35,0288	-0,0646549
423,800	35,3696	-0,0648127
427,200	35,7078	-0,0652813
430,600	36,0489	-0,0656553
434,000	36,3908	-0,0661786
437,400	36,7282	-0,0666602
440,800	37,0690	-0,0669161
444,200	37,4089	-0,0672839
447,600	37,7509	-0,0677123
451,000	38,0904	-0,0683415
454,400	38,4295	-0,0687645
457,800	38,7709	-0,0691808
461,200	39,1114	-0,0695222
464,600	39,4505	-0,0700127
468,000	39,7906	-0,0703277
471,400	40,1317	-0,0706245
474,800	40,4720	-0,0709443
478,200	40,8102	-0,0712693
481,600	41,1524	-0,0717384
485,000	41,4913	-0,0719584
488,400	41,8331	-0,0724272
491,800	42,1723	-0,0727888
495,200	42,5125	-0,0730681
498,600	42,8531	-0,0734418
502,000	43,1938	-0,0739328
505,400	43,5327	-0,0742973
508,800	43,8738	-0,0748804
512,200	44,2143	-0,0750197
515,600	44,5543	-0,0754319
519,000	44,8946	-0,0757942
522,400	45,2340	-0,0763755
525,800	45,5749	-0,0764448
529,200	45,9153	-0,0767894
532,600	46,2543	-0,0771413
536,000	46,5958	-0,0774555
539,400	46,9359	-0,0777691
542,800	47,2750	-0,0781221
546,200	47,6157	-0,0782838
549,600	47,9558	-0,0785767
553,000	48,2969	-0,0785794
556,400	48,6351	-0,0789315
559,800	48,9782	-0,0790254
563,200	49,3163	-0,0799527
566,600	49,6568	-0,0798914
570,000	49,9972	-0,0799408
573,400	50,3382	-0,0799756
576,800	50,6784	-0,0804416
580,200	51,0174	-0,0806282
583,600	51,3575	-0,0807636
587,000	51,6992	-0,0807224
590,400	52,0386	-0,0808710
593,800	52,3794	-0,0808811
597,200	52,7180	-0,0807713
600,600	53,0597	-0,0810373
604,000	53,3992	-0,0809365
607,400	53,7404	-0,0810409
610,800	54,0787	-0,0807556
614,200	54,4217	-0,0809771
617,600	54,7619	-0,0810512
621,000	55,1010	-0,0811872
624,400	55,4396	-0,0811823
627,800	55,7802	-0,0811154
631,200	56,1225	-0,0810311
634,600	56,4616	-0,0811195
638,000	56,8017	-0,0808711
641,400	57,1417	-0,0809451
644,800	57,4846	-0,0809066
648,200	57,8223	-0,0807728
651,600	58,1630	-0,0807479
655,000	58,5034	-0,0805882
658,400	58,8444	-0,0805193
661,800	59,1838	-0,0803448
665,200	59,5242	-0,0801058
668,600	59,8648	-0,0799239
672,000	60,2047	-0,0798215
675,400	60,5458	-0,0798199
678,800	60,8860	-0,0795893
682,200	61,2265	-0,0795213
685,600	61,5645	-0,0794692
689,000	61,9057	-0,0790818
692,400	62,2470	-0,0790323
695,800	62,5864	-0,0786315
699,200	62,9266	-0,0783048
702,600	63,2670	-0,0779464
706,000	63,6076	-0,0778519
709,400	63,9481	-0,0775221
712,800	64,2874	-0,0771718
716,200	64,6274	-0,0765726
719,600	64,9690	-0,0763834
723,000	65,3092	-0,0763887
726,400	65,6491	-0,0758841
729,800	65,9898	-0,0756021
733,200	66,3302	-0,0755120
736,600	66,6699	-0,0750463
740,000	67,0116	-0,0745432
743,400	67,3506	-0,0743627
746,800	67,6899	-0,0739917
750,200	68,0307	-0,0735442
753,600	68,3718	-0,0734395
757,000	68,7120	-0,0731656
760,400	69,0524	-0,0727146
763,800	69,3924	-0,0724646
767,200	69,7310	-0,0719533
770,600	70,0735	-0,0714785
774,000	70,4118	-0,0711843
777,400	70,7528	-0,0706216
780,800	71,0930	-0,0702812
784,200	71,4328	-0,0699625
787,600	71,7732	-0,0693495
791,000	72,1142	-0,0690746
794,400	72,4536	-0,0687025
797,800	72,7942	-0,0682907
801,200	73,1348	-0,0678836
804,600	73,4743	-0,0670550
808,000	73,8160	-0,0665650
811,400	74,1565	-0,0662811
814,800	74,4956	-0,0659633
818,200	74,8358	-0,0656241
821,600	75,1769	-0,0651818
825,000	75,5180	-0,0645438
828,400	75,8583	-0,0642778
831,800	76,1968	-0,0640761
835,200	76,5377	-0,0636522
838,600	76,8780	-0,0632603
842,000	77,2185	-0,0630874
845,400	77,5586	-0,0626396
848,800	77,9003	-0,0621334
852,200	78,2391	-0,0618470
855,600	78,5799	-0,0613856
859,000	78,9195	-0,0607870
862,400	79,2592	-0,0602556
865,800	79,6003	-0,0598780
869,200	79,9410	-0,0592084
872,600	80,2809	-0,0587970
876,000	80,6209	-0,0585610
879,400	80,9614	-0,0578702
882,800	81,3008	-0,0577271
886,200	81,6408	-0,0571095
889,600	81,9827	-0,0566904
893,000	82,3234	-0,0563228
896,400	82,6625	-0,0557535
899,800	83,0032	-0,0551744
903,200	83,3445	-0,0547830
906,600	83,6849	-0,0543856
910,000	84,0248	-0,0542475
913,400	84,3652	-0,0536712
916,800	84,7049	-0,0536960
920,200	85,0460	-0,0532395
923,600	85,3853	-0,0527836
927,000	85,7247	-0,0522065
930,400	86,0656	-0,0517322
933,800	86,4077	-0,0512719
937,200	86,7469	-0,0510428
940,600	87,0876	-0,0504555
944,000	87,4278	-0,0501513
947,400	87,7675	-0,0499554
950,800	88,1069	-0,0490338
954,200	88,4472	-0,0487428
957,600	88,7877	-0,0483107
961,000	89,1286	-0,0478291
964,400	89,4681	-0,0475422
967,800	89,8091	-0,0472619
971,200	90,1492	-0,0466925
974,600	90,4892	-0,0462554
978,000	90,8287	-0,0460307
981,400	91,1702	-0,0456659
984,800	91,5099	-0,0453415
988,200	91,8513	-0,0449754
991,600	92,1913	-0,0447113
995,000	92,5303	-0,0443488
998,400	92,8712	-0,0437988
1001,80	93,2110	-0,0435071
1005,20	93,5521	-0,0431040
1008,60	93,8922	-0,0428230
1012,00	94,2333	-0,0424042
1015,40	94,5729	-0,0422404
1018,80	94,9121	-0,0417790
1022,20	95,2530	-0,0412176
1025,60	95,5930	-0,0409606
1029,00	95,9327	-0,0407273
1032,40	96,2736	-0,0401552
1035,80	96,6142	-0,0398155
1039,20	96,9550	-0,0394863
1042,60	97,2946	-0,0393268
1046,00	97,6353	-0,0389914
1049,40	97,9759	-0,0385683
1052,80	98,3156	-0,0383152
1056,20	98,6550	-0,0375220
1056,60	98,6956	-0,0374790